Data File Name,2100 expert_DNA 7500_DE34903367_2015-04-21_12-39-18.xad
Data File Path,C:\Users\GEGC\Desktop
Date Created,"Tuesday, April 21, 2015 05:39:17"
Date Last Modified,"Tuesday, April 21, 2015 06:16:44"
Version Created,B.02.08.SI648
Version Last Modified,B.02.08.SI648
 
Assay Name,DNA 7500 Series II
Assay Path,C:\Program Files (x86)\Agilent\2100 bioanalyzer\2100 expert\assays\dsDNA
Assay Title,DNA 7500
Assay Version,2.3
 
Number of Samples Run,12
 
Sample Name,Sample 2
Number of Events,1481
 
Time,Value
20,2.297974E-02
20.05,2.297974E-02
20.1,2.297974E-02
20.15,2.297974E-02
20.2,2.297974E-02
20.25,2.297974E-02
20.3,2.297974E-02
20.35,2.297974E-02
20.4,2.297974E-02
20.45,2.297974E-02
20.5,2.297974E-02
20.55,2.297974E-02
20.6,2.297974E-02
20.65,2.297974E-02
20.7,2.297974E-02
20.75,2.297974E-02
20.8,2.297974E-02
20.85,2.297974E-02
20.9,2.297974E-02
20.95,2.297974E-02
21,2.297974E-02
21.05,2.297974E-02
21.1,2.297974E-02
21.15,2.297974E-02
21.2,2.297974E-02
21.25,2.297974E-02
21.3,2.297974E-02
21.35,2.297974E-02
21.4,2.297974E-02
21.45,2.297974E-02
21.5,2.297974E-02
21.55,2.297974E-02
21.6,2.297974E-02
21.65,2.297974E-02
21.7,2.297974E-02
21.75,2.297974E-02
21.8,-0.0182352
21.85,-2.702973E-02
21.9,-3.429752E-02
21.95,-3.969095E-02
22,-4.375355E-02
22.05,-5.189161E-02
22.1,-5.078726E-02
22.15,-3.427286E-02
22.2,-7.584405E-02
22.25,-0.0968859
22.3,-8.644781E-02
22.35,-0.1071764
22.4,-9.955961E-02
22.45,-8.073765E-02
22.5,-5.845966E-02
22.55,-6.581878E-02
22.6,-0.1176673
22.65,-0.150837
22.7,-0.1248231
22.75,-0.1107079
22.8,-9.667195E-02
22.85,-7.387143E-02
22.9,-8.610217E-02
22.95,-0.1314702
23,-0.1955525
23.05,-0.2285686
23.1,-0.2076282
23.15,-0.1944573
23.2,-0.162005
23.25,-0.1525218
23.3,-0.1714865
23.35,-0.2274525
23.4,-0.2739992
23.45,-0.292222
23.5,-0.2836502
23.55,-0.2593031
23.6,-0.2368548
23.65,-0.2405138
23.7,-0.2899247
23.75,-0.3174218
23.8,-0.3213708
23.85,-0.2808452
23.9,-0.2328586
23.95,-0.2174012
24,-0.2306933
24.05,-0.272404
24.1,-0.3403795
24.15,-0.3611549
24.2,-0.3768983
24.25,-0.364058
24.3,-0.3567731
24.35,-0.3533638
24.4,-0.3718349
24.45,-0.3891852
24.5,-0.391372
24.55,-0.381241
24.6,-0.3656642
24.65,-0.3589514
24.7,-0.2836927
24.75,-0.2408923
24.8,-0.2110522
24.85,-0.2021494
24.9,-0.2175516
24.95,-0.2651599
25,-0.3449784
25.05,-0.418374
25.1,-0.4215577
25.15,-0.3619661
25.2,-0.3400463
25.25,-0.3218217
25.3,-0.2995234
25.35,-0.3076781
25.4,-0.3368447
25.45,-0.3665735
25.5,-0.374265
25.55,-0.3730775
25.6,-0.4172727
25.65,-0.4783202
25.7,-0.4952316
25.75,-0.4669207
25.8,-0.4425986
25.85,-0.4015951
25.9,-0.3526239
25.95,-0.2969583
26,-0.244511
26.05,-0.2264639
26.1,-0.2598278
26.15,-0.2933314
26.2,-0.4232097
26.25,-0.4624114
26.3,-0.4798457
26.35,-0.4699137
26.4,-0.4404149
26.45,-0.4196169
26.5,-0.4168478
26.55,-0.4189432
26.6,-0.4321865
26.65,-0.4520542
26.7,-0.4159837
26.75,-0.4254416
26.8,-0.4540954
26.85,-0.4785145
26.9,-0.457682
26.95,-0.4053824
27,-0.3659936
27.05,-0.3511584
27.1,-0.3424857
27.15,-0.3647822
27.2,-0.4378305
27.25,-0.5185648
27.3,-0.5612665
27.35,-0.5816298
27.4,-0.5937051
27.45,-0.5859405
27.5,-0.5557794
27.55,-0.5325331
27.6,-0.5280599
27.65,-0.5238116
27.7,-0.4965456
27.75,-0.5438473
27.8,-0.5940793
27.85,-0.6166993
27.9,-0.626524
27.95,-0.6112332
28,-0.5644722
28.05,-0.5262688
28.1,-0.4541086
28.15,-0.4025676
28.2,-0.4249672
28.25,-0.4414549
28.3,-0.4769324
28.35,-0.5129023
28.4,-0.5368432
28.45,-0.5546077
28.5,-0.5703952
28.55,-0.5824984
28.6,-0.6302662
28.65,-0.6753579
28.7,-0.6497632
28.75,-0.593192
28.8,-0.5412693
28.85,-0.5305775
28.9,-0.5508085
28.95,-0.5894194
29,-0.6444032
29.05,-0.6782238
29.1,-0.6738836
29.15,-0.6524848
29.2,-0.6317542
29.25,-0.6674577
29.3,-0.7248776
29.35,-0.7346137
29.4,-0.7191337
29.45,-0.7188769
29.5,-0.7170993
29.55,-0.7047974
29.6,-0.6370243
29.65,-0.6425676
29.7,-0.6008381
29.75,-0.541037
29.8,-0.50592
29.85,-0.5208856
29.9,-0.5524083
29.95,-0.5694922
30,-0.5913251
30.05,-0.6211136
30.1,-0.6984622
30.15,-0.7276777
30.2,-0.770311
30.25,-0.8084005
30.3,-0.7974632
30.35,-0.77061
30.4,-0.7561979
30.45,-0.7418209
30.5,-0.7219541
30.55,-0.7237173
30.6,-0.6986997
30.65,-0.6623693
30.7,-0.6508691
30.75,-0.6688731
30.8,-0.7069467
30.85,-0.729583
30.9,-0.7452654
30.95,-0.7715387
31,-0.7697461
31.05,-0.7763917
31.1,-0.7973872
31.15,-0.8146414
31.2,-0.8209143
31.25,-0.8369558
31.3,-0.8628796
31.35,-0.8900659
31.4,-0.8969479
31.45,-0.8854035
31.5,-0.9001422
31.55,-0.872179
31.6,-0.8390905
31.65,-0.7748809
31.7,-0.7300852
31.75,-0.686424
31.8,-0.6074126
31.85,-0.5404133
31.9,-0.5406491
31.95,-0.6012267
32,-0.6998348
32.05,-0.7709855
32.1,-0.8216631
32.15,-0.8837494
32.2,-0.9037468
32.25,-0.8910908
32.3,-0.8919317
32.35,-0.8972052
32.4,-0.8857821
32.45,-0.8684778
32.5,-0.8278913
32.55,-0.8320573
32.6,-0.8138978
32.65,-0.8333887
32.7,-0.8460694
32.75,-0.8443021
32.8,-0.8389781
32.85,-0.8381058
32.9,-0.8436806
32.95,-0.859812
33,-0.8883953
33.05,-0.8760206
33.1,-0.8749977
33.15,-0.8587901
33.2,-0.8360507
33.25,-0.8303928
33.3,-0.8540839
33.35,-0.8992528
33.4,-0.9385962
33.45,-0.9453115
33.5,-0.9377805
33.55,-0.9475583
33.6,-0.9516625
33.65,-0.9343005
33.7,-0.886122
33.75,-0.8401997
33.8,-0.8175672
33.85,-0.8119711
33.9,-0.8107099
33.95,-0.8212052
34,-0.866632
34.05,-0.8984253
34.1,-0.9305031
34.15,-0.9411591
34.2,-0.9529975
34.25,-0.9057713
34.3,-0.729687
34.35,-0.277371
34.4,0.6945632
34.45,2.493292
34.5,5.772626
34.55,10.96404
34.6,18.12398
34.65,27.21506
34.7,37.91049
34.75,49.7631
34.8,62.13603
34.85,74.25328
34.9,85.19901
34.95,93.76833
35,98.59875
35.05,97.87777
35.1,91.92347
35.15,81.42933
35.2,67.7897
35.25,52.90482
35.3,38.6339
35.35,26.36299
35.4,16.83192
35.45,10.14008
35.5,5.733574
35.55,3.117773
35.6,1.499912
35.65,0.4568631
35.7,-0.1647868
35.75,-0.5160471
35.8,-0.6897209
35.85,-0.7409484
35.9,-0.7611269
35.95,-0.7770987
36,-0.811167
36.05,-0.8171415
36.1,-0.8554569
36.15,-0.9126421
36.2,-0.9291173
36.25,-0.9366775
36.3,-0.9536954
36.35,-0.9388592
36.4,-0.8928716
36.45,-0.9146209
36.5,-0.8931672
36.55,-0.9082766
36.6,-0.8974053
36.65,-0.8678468
36.7,-0.856946
36.75,-0.836541
36.8,-0.792653
36.85,-0.7672973
36.9,-0.7741885
36.95,-0.7680457
37,-0.7839218
37.05,-0.7731176
37.1,-0.7936326
37.15,-0.8287601
37.2,-0.8725805
37.25,-0.9140496
37.3,-0.938184
37.35,-0.9491613
37.4,-0.9715655
37.45,-0.9657719
37.5,-0.9854578
37.55,-1.027686
37.6,-1.076463
37.65,-1.132599
37.7,-1.152688
37.75,-1.148031
37.8,-1.150779
37.85,-1.150077
37.9,-1.145139
37.95,-1.143522
38,-1.122081
38.05,-1.137821
38.1,-1.143456
38.15,-1.134053
38.2,-1.138615
38.25,-1.141179
38.3,-1.135962
38.35,-1.165842
38.4,-1.170096
38.45,-1.202746
38.5,-1.221111
38.55,-1.200164
38.6,-1.163347
38.65,-1.123882
38.7,-1.08672
38.75,-1.088856
38.8,-1.148534
38.85,-1.212062
38.9,-1.277599
38.95,-1.306583
39,-1.338573
39.05,-1.310814
39.1,-1.265544
39.15,-1.218106
39.2,-1.207367
39.25,-1.224522
39.3,-1.224486
39.35,-1.227263
39.4,-1.255697
39.45,-1.292732
39.5,-1.311684
39.55,-1.316254
39.6,-1.33795
39.65,-1.346475
39.7,-1.326047
39.75,-1.301455
39.8,-1.288712
39.85,-1.253739
39.9,-1.229434
39.95,-1.195208
40,-1.178439
40.05,-1.229572
40.1,-1.277042
40.15,-1.338825
40.2,-1.396676
40.25,-1.398363
40.3,-1.353075
40.35,-1.337189
40.4,-1.317975
40.45,-1.313964
40.5,-1.351032
40.55,-1.362796
40.6,-1.348114
40.65,-1.316427
40.7,-1.307392
40.75,-1.343517
40.8,-1.38401
40.85,-1.392211
40.9,-1.421444
40.95,-1.467982
41,-1.450485
41.05,-1.419
41.1,-1.386183
41.15,-1.368456
41.2,-1.354188
41.25,-1.331631
41.3,-1.330313
41.35,-1.351217
41.4,-1.392168
41.45,-1.444288
41.5,-1.446669
41.55,-1.465867
41.6,-1.461505
41.65,-1.440947
41.7,-1.416001
41.75,-1.390296
41.8,-1.407303
41.85,-1.453961
41.9,-1.515051
41.95,-1.494761
42,-1.491159
42.05,-1.455059
42.1,-1.450858
42.15,-1.452418
42.2,-1.440185
42.25,-1.456335
42.3,-1.478345
42.35,-1.507843
42.4,-1.489046
42.45,-1.469077
42.5,-1.466799
42.55,-1.469366
42.6,-1.456042
42.65,-1.409566
42.7,-1.371783
42.75,-1.392981
42.8,-1.394964
42.85,-1.379595
42.9,-1.398343
42.95,-1.419159
43,-1.434876
43.05,-1.445744
43.1,-1.457161
43.15,-1.473868
43.2,-1.472506
43.25,-1.435809
43.3,-1.447771
43.35,-1.500875
43.4,-1.540178
43.45,-1.611161
43.5,-1.657421
43.55,-1.687612
43.6,-1.670158
43.65,-1.617475
43.7,-1.572031
43.75,-1.537858
43.8,-1.534366
43.85,-1.53057
43.9,-1.462219
43.95,-1.382855
44,-1.395085
44.05,-1.427211
44.1,-1.463415
44.15,-1.509363
44.2,-1.551898
44.25,-1.586511
44.3,-1.580458
44.35,-1.544115
44.4,-1.582522
44.45,-1.642785
44.5,-1.660904
44.55,-1.666525
44.6,-1.670968
44.65,-1.659726
44.7,-1.621248
44.75,-1.561966
44.8,-1.544108
44.85,-1.533494
44.9,-1.557974
44.95,-1.609915
45,-1.66353
45.05,-1.692388
45.1,-1.700779
45.15,-1.674827
45.2,-1.614105
45.25,-1.610711
45.3,-1.563326
45.35,-1.573193
45.4,-1.571095
45.45,-1.60157
45.5,-1.643095
45.55,-1.694238
45.6,-1.72986
45.65,-1.751944
45.7,-1.780166
45.75,-1.728794
45.8,-1.694623
45.85,-1.677017
45.9,-1.697098
45.95,-1.723279
46,-1.744095
46.05,-1.762022
46.1,-1.753821
46.15,-1.714477
46.2,-1.691805
46.25,-1.696788
46.3,-1.701276
46.35,-1.72736
46.4,-1.741363
46.45,-1.765021
46.5,-1.772578
46.55,-1.747587
46.6,-1.720764
46.65,-1.714322
46.7,-1.694714
46.75,-1.682245
46.8,-1.74244
46.85,-1.739711
46.9,-1.742824
46.95,-1.739031
47,-1.748387
47.05,-1.739792
47.1,-1.704138
47.15,-1.681631
47.2,-1.686644
47.25,-1.693954
47.3,-1.704835
47.35,-1.699905
47.4,-1.709258
47.45,-1.69048
47.5,-1.659582
47.55,-1.653321
47.6,-1.655752
47.65,-1.627505
47.7,-1.597981
47.75,-1.55507
47.8,-1.54201
47.85,-1.524023
47.9,-1.539862
47.95,-1.556631
48,-1.561385
48.05,-1.552936
48.1,-1.536098
48.15,-1.514481
48.2,-1.481786
48.25,-1.484726
48.3,-1.434035
48.35,-1.425993
48.4,-1.446369
48.45,-1.48245
48.5,-1.484186
48.55,-1.46085
48.6,-1.448918
48.65,-1.431413
48.7,-1.380246
48.75,-1.357024
48.8,-1.360045
48.85,-1.398764
48.9,-1.457636
48.95,-1.540105
49,-1.620829
49.05,-1.666288
49.1,-1.661591
49.15,-1.638182
49.2,-1.691902
49.25,-1.700227
49.3,-1.726078
49.35,-1.729175
49.4,-1.69375
49.45,-1.644647
49.5,-1.618759
49.55,-1.616156
49.6,-1.611279
49.65,-1.572787
49.7,-1.372151
49.75,-0.8612095
49.8,0.4328316
49.85,2.975577
49.9,7.341762
49.95,13.7894
50,21.89253
50.05,30.89779
50.1,39.79039
50.15,47.09096
50.2,51.85442
50.25,52.46759
50.3,49.6179
50.35,44.3695
50.4,37.94307
50.45,31.37807
50.5,25.56662
50.55,20.89701
50.6,17.18686
50.65,14.1689
50.7,11.33521
50.75,8.971986
50.8,6.829398
50.85,5.074478
50.9,3.771153
50.95,3.049241
51,3.011427
51.05,3.692544
51.1,5.093976
51.15,7.191197
51.2,9.844151
51.25,12.67923
51.3,14.76866
51.35,15.78148
51.4,15.58764
51.45,14.298
51.5,12.24068
51.55,9.821248
51.6,7.434509
51.65,5.514141
51.7,3.979733
51.75,2.671399
51.8,1.768699
51.85,1.099543
51.9,0.5976393
51.95,0.2677743
52,4.215224E-02
52.05,-0.1302918
52.1,-0.1768038
52.15,-0.2101222
52.2,-0.2495694
52.25,-0.2918278
52.3,-0.3758498
52.35,-0.4336667
52.4,-0.493971
52.45,-0.5726728
52.5,-0.6124203
52.55,-0.5793084
52.6,-0.565232
52.65,-0.5860032
52.7,-0.630884
52.75,-0.6837329
52.8,-0.695548
52.85,-0.7424948
52.9,-0.7646045
52.95,-0.7853541
53,-0.8467345
53.05,-0.9120887
53.1,-0.9530321
53.15,-0.9963692
53.2,-0.9556915
53.25,-0.8457922
53.3,-0.7532793
53.35,-0.6968274
53.4,-0.7208843
53.45,-0.787437
53.5,-0.8325827
53.55,-0.8667771
53.6,-0.9231362
53.65,-0.8906165
53.7,-0.8482576
53.75,-0.9016123
53.8,-0.9808162
53.85,-1.015825
53.9,-1.03163
53.95,-1.060465
54,-1.09411
54.05,-1.112703
54.1,-1.122946
54.15,-1.156027
54.2,-1.148471
54.25,-1.099872
54.3,-1.058081
54.35,-1.046799
54.4,-1.040177
54.45,-1.006474
54.5,-0.9515975
54.55,-0.9121938
54.6,-0.8950647
54.65,-0.8716992
54.7,-0.827625
54.75,-0.7884075
54.8,-0.7658973
54.85,-0.7547524
54.9,-0.7334792
54.95,-0.7014674
55,-0.6853826
55.05,-0.6942644
55.1,-0.6794714
55.15,-0.7573035
55.2,-0.8329946
55.25,-0.8729267
55.3,-0.926333
55.35,-1.016598
55.4,-1.104292
55.45,-1.190236
55.5,-1.325417
55.55,-1.495487
55.6,-1.674093
55.65,-1.7308
55.7,-1.771145
55.75,-1.830946
55.8,-1.865982
55.85,-1.886796
55.9,-1.931887
55.95,-1.997634
56,-2.050418
56.05,-2.103948
56.1,-2.087008
56.15,-2.087501
56.2,-2.089795
56.25,-2.102285
56.3,-2.166605
56.35,-2.229568
56.4,-2.281532
56.45,-2.354136
56.5,-2.428427
56.55,-2.450317
56.6,-2.457656
56.65,-2.46362
56.7,-2.497404
56.75,-2.504616
56.8,-2.488559
56.85,-2.47124
56.9,-2.470017
56.95,-2.472584
57,-2.457413
57.05,-2.476589
57.1,-2.501765
57.15,-2.499861
57.2,-2.476074
57.25,-2.470373
57.3,-2.444363
57.35,-2.442227
57.4,-2.464777
57.45,-2.483532
57.5,-2.541192
57.55,-2.548423
57.6,-2.529839
57.65,-2.46545
57.7,-2.421594
57.75,-2.383599
57.8,-2.397743
57.85,-2.429105
57.9,-2.462279
57.95,-2.514095
58,-2.514577
58.05,-2.457219
58.1,-2.388029
58.15,-2.380048
58.2,-2.354319
58.25,-2.344307
58.3,-2.353825
58.35,-2.368774
58.4,-2.390727
58.45,-2.424767
58.5,-2.449288
58.55,-2.512179
58.6,-2.522649
58.65,-2.480698
58.7,-2.483609
58.75,-2.481649
58.8,-2.449906
58.85,-2.427088
58.9,-2.424078
58.95,-2.3991
59,-2.384803
59.05,-2.417693
59.1,-2.48304
59.15,-2.545611
59.2,-2.569372
59.25,-2.544842
59.3,-2.509742
59.35,-2.46911
59.4,-2.426597
59.45,-2.435068
59.5,-2.501095
59.55,-2.512853
59.6,-2.533391
59.65,-2.536092
59.7,-2.504522
59.75,-2.477381
59.8,-2.468999
59.85,-2.481071
59.9,-2.510923
59.95,-2.540007
60,-2.551436
60.05,-2.547784
60.1,-2.532985
60.15,-2.518541
60.2,-2.501084
60.25,-2.496633
60.3,-2.494009
60.35,-2.487033
60.4,-2.476115
60.45,-2.435224
60.5,-2.364977
60.55,-2.337982
60.6,-2.30329
60.65,-2.28486
60.7,-2.286315
60.75,-2.27177
60.8,-2.256024
60.85,-2.252139
60.9,-2.249351
60.95,-2.277095
61,-2.324631
61.05,-2.346098
61.1,-2.372549
61.15,-2.38053
61.2,-2.396312
61.25,-2.426095
61.3,-2.447279
61.35,-2.455043
61.4,-2.47376
61.45,-2.501452
61.5,-2.529648
61.55,-2.567128
61.6,-2.599928
61.65,-2.598565
61.7,-2.586523
61.75,-2.549557
61.8,-2.528436
61.85,-2.553416
61.9,-2.56779
61.95,-2.554201
62,-2.558758
62.05,-2.489736
62.1,-2.43488
62.15,-2.409063
62.2,-2.416926
62.25,-2.440139
62.3,-2.44906
62.35,-2.442749
62.4,-2.459395
62.45,-2.499559
62.5,-2.446805
62.55,-2.449287
62.6,-2.446248
62.65,-2.451095
62.7,-2.453741
62.75,-2.468424
62.8,-2.492117
62.85,-2.488162
62.9,-2.43575
62.95,-2.375754
63,-2.348805
63.05,-2.377616
63.1,-2.477719
63.15,-2.575668
63.2,-2.684209
63.25,-2.79418
63.3,-2.855384
63.35,-2.85282
63.4,-2.851135
63.45,-2.845393
63.5,-2.849367
63.55,-2.840626
63.6,-2.777788
63.65,-2.744401
63.7,-2.729723
63.75,-2.708044
63.8,-2.685585
63.85,-2.685876
63.9,-2.716279
63.95,-2.73637
64,-2.784029
64.05,-2.810428
64.1,-2.834107
64.15,-2.832406
64.2,-2.801243
64.25,-2.747968
64.3,-2.714814
64.35,-2.750425
64.4,-2.807715
64.45,-2.88561
64.5,-2.928091
64.55,-2.930663
64.6,-2.941375
64.65,-2.927888
64.7,-2.894337
64.75,-2.87891
64.8,-2.884534
64.85,-2.869969
64.9,-2.862044
64.95,-2.881818
65,-2.886
65.05,-2.895197
65.1,-2.908092
65.15,-2.920166
65.2,-2.962037
65.25,-3.022186
65.3,-3.061455
65.35,-3.082476
65.4,-3.063617
65.45,-3.002919
65.5,-2.964375
65.55,-2.905544
65.6,-2.863257
65.65,-2.867466
65.7,-2.901537
65.75,-2.943527
65.8,-2.980842
65.85,-2.991935
65.9,-3.000531
65.95,-2.945616
66,-2.92527
66.05,-2.893673
66.1,-2.875134
66.15,-2.865538
66.2,-2.87728
66.25,-2.915454
66.3,-2.971304
66.35,-3.054756
66.4,-3.102807
66.45,-3.173733
66.5,-3.11795
66.55,-3.060752
66.6,-3.056877
66.65,-3.061978
66.7,-3.05017
66.75,-3.045438
66.8,-3.070656
66.85,-3.107099
66.9,-3.144439
66.95,-3.128871
67,-3.132171
67.05,-3.127821
67.1,-3.08411
67.15,-3.066585
67.2,-3.071958
67.25,-3.086386
67.3,-3.155648
67.35,-3.186376
67.4,-3.203562
67.45,-3.15835
67.5,-3.13046
67.55,-3.096615
67.6,-3.060735
67.65,-3.012788
67.7,-2.992679
67.75,-3.022046
67.8,-3.034335
67.85,-3.051072
67.9,-3.016768
67.95,-3.006844
68,-3.025525
68.05,-3.068866
68.1,-3.084897
68.15,-3.071486
68.2,-3.047281
68.25,-3.014621
68.3,-2.980216
68.35,-2.985839
68.4,-3.017004
68.45,-3.07274
68.5,-3.060231
68.55,-3.055173
68.6,-3.078686
68.65,-3.128181
68.7,-3.184343
68.75,-3.226426
68.8,-3.257247
68.85,-3.243086
68.9,-3.232424
68.95,-3.200166
69,-3.204397
69.05,-3.198804
69.1,-3.186137
69.15,-3.165779
69.2,-3.142829
69.25,-3.132861
69.3,-3.120313
69.35,-3.154104
69.4,-3.148115
69.45,-3.123391
69.5,-3.060265
69.55,-3.043616
69.6,-3.06576
69.65,-3.108931
69.7,-3.158957
69.75,-3.186414
69.8,-3.200566
69.85,-3.173017
69.9,-3.172756
69.95,-3.184885
70,-3.233966
70.05,-3.236936
70.1,-3.217535
70.15,-3.184153
70.2,-3.131074
70.25,-3.109452
70.3,-3.10538
70.35,-3.097857
70.4,-3.085948
70.45,-3.11353
70.5,-3.160165
70.55,-3.226549
70.6,-3.27467
70.65,-3.284467
70.7,-3.263977
70.75,-3.218834
70.8,-3.210381
70.85,-3.211231
70.9,-3.25002
70.95,-3.299922
71,-3.31771
71.05,-3.293528
71.1,-3.25943
71.15,-3.252027
71.2,-3.270164
71.25,-3.279877
71.3,-3.297404
71.35,-3.32666
71.4,-3.328125
71.45,-3.351717
71.5,-3.343689
71.55,-3.347945
71.6,-3.353786
71.65,-3.340905
71.7,-3.336743
71.75,-3.335771
71.8,-3.302997
71.85,-3.305052
71.9,-3.326018
71.95,-3.329999
72,-3.371081
72.05,-3.416006
72.1,-3.433812
72.15,-3.425149
72.2,-3.402105
72.25,-3.392287
72.3,-3.369091
72.35,-3.377206
72.4,-3.385947
72.45,-3.379154
72.5,-3.346796
72.55,-3.288055
72.6,-3.244849
72.65,-3.251393
72.7,-3.273746
72.75,-3.263253
72.8,-3.265713
72.85,-3.266104
72.9,-3.304468
72.95,-3.327417
73,-3.354656
73.05,-3.400775
73.1,-3.428941
73.15,-3.398286
73.2,-3.342591
73.25,-3.351043
73.3,-3.377789
73.35,-3.394406
73.4,-3.420527
73.45,-3.459185
73.5,-3.498818
73.55,-3.522924
73.6,-3.537575
73.65,-3.553129
73.7,-3.546682
73.75,-3.509113
73.8,-3.433001
73.85,-3.429997
73.9,-3.447567
73.95,-3.48959
74,-3.536689
74.05,-3.559924
74.1,-3.564008
74.15,-3.563956
74.2,-3.530385
74.25,-3.509866
74.3,-3.543258
74.35,-3.590688
74.4,-3.645735
74.45,-3.651144
74.5,-3.624594
74.55,-3.559245
74.6,-3.466439
74.65,-3.402098
74.7,-3.358521
74.75,-3.336014
74.8,-3.405602
74.85,-3.432231
74.9,-3.419226
74.95,-3.384077
75,-3.363285
75.05,-3.391198
75.1,-3.446607
75.15,-3.484525
75.2,-3.56494
75.25,-3.603789
75.3,-3.598978
75.35,-3.543065
75.4,-3.459004
75.45,-3.423631
75.5,-3.436837
75.55,-3.446959
75.6,-3.442826
75.65,-3.463338
75.7,-3.464498
75.75,-3.475022
75.8,-3.416162
75.85,-3.361269
75.9,-3.261755
75.95,-3.17941
76,-3.140221
76.05,-3.161475
76.1,-3.245652
76.15,-3.327924
76.2,-3.363594
76.25,-3.337606
76.3,-3.309637
76.35,-3.280455
76.4,-3.327959
76.45,-3.388134
76.5,-3.417976
76.55,-3.399659
76.6,-3.332534
76.65,-3.273897
76.7,-3.249257
76.75,-3.271435
76.8,-3.323367
76.85,-3.429989
76.9,-3.487381
76.95,-3.455968
77,-3.387713
77.05,-3.336225
77.1,-3.287415
77.15,-3.211627
77.2,-3.207806
77.25,-3.294888
77.3,-3.369292
77.35,-3.41426
77.4,-3.448034
77.45,-3.439709
77.5,-3.381761
77.55,-3.304587
77.6,-3.256933
77.65,-3.299698
77.7,-3.354245
77.75,-3.436793
77.8,-3.516026
77.85,-3.534434
77.9,-3.498946
77.95,-3.465213
78,-3.442413
78.05,-3.416668
78.1,-3.411254
78.15,-3.427649
78.2,-3.483758
78.25,-3.528357
78.3,-3.56604
78.35,-3.585938
78.4,-3.586918
78.45,-3.575582
78.5,-3.55663
78.55,-3.539969
78.6,-3.535539
78.65,-3.502382
78.7,-3.470806
78.75,-3.494937
78.8,-3.520922
78.85,-3.525532
78.9,-3.53981
78.95,-3.591411
79,-3.607803
79.05,-3.520197
79.1,-3.438908
79.15,-3.434793
79.2,-3.481808
79.25,-3.448603
79.3,-3.39784
79.35,-3.404625
79.4,-3.450568
79.45,-3.485826
79.5,-3.532043
79.55,-3.638327
79.6,-3.739064
79.65,-3.803645
79.7,-3.734694
79.75,-3.617234
79.8,-3.525603
79.85,-3.464892
79.9,-3.450172
79.95,-3.464318
80,-3.505701
80.05,-3.60828
80.1,-3.730777
80.15,-3.697426
80.2,-3.669998
80.25,-3.648751
80.3,-3.575426
80.35,-3.52904
80.4,-3.531062
80.45,-3.60025
80.5,-3.734934
80.55,-3.862015
80.6,-3.902472
80.65,-3.817329
80.7,-3.730476
80.75,-3.673351
80.8,-3.632075
80.85,-3.560578
80.9,-3.493784
80.95,-3.4566
81,-3.430232
81.05,-3.406896
81.1,-3.404241
81.15,-3.529772
81.2,-3.569882
81.25,-3.536602
81.3,-3.468908
81.35,-3.404685
81.4,-3.362617
81.45,-3.351041
81.5,-3.38956
81.55,-3.484437
81.6,-3.514237
81.65,-3.4357
81.7,-3.464949
81.75,-3.543156
81.8,-3.641362
81.85,-3.728418
81.9,-3.806411
81.95,-3.853852
82,-3.80942
82.05,-3.664189
82.1,-3.553579
82.15,-3.599251
82.2,-3.64891
82.25,-3.730319
82.3,-3.763857
82.35,-3.76794
82.4,-3.779397
82.45,-3.822704
82.5,-3.89288
82.55,-3.920239
82.6,-3.893351
82.65,-3.816185
82.7,-3.753796
82.75,-3.607495
82.8,-3.542587
82.85,-3.561978
82.9,-3.593542
82.95,-3.614219
83,-3.643095
83.05,-3.643928
83.1,-3.511913
83.15,-3.382162
83.2,-3.325879
83.25,-3.368354
83.3,-3.440874
83.35,-3.518672
83.4,-3.637102
83.45,-3.781778
83.5,-3.849265
83.55,-3.843781
83.6,-3.922203
83.65,-3.977475
83.7,-3.949517
83.75,-3.847597
83.8,-3.713133
83.85,-3.652532
83.9,-3.711036
83.95,-3.830314
84,-3.953265
84.05,-4.120976
84.1,-4.255972
84.15,-4.227719
84.2,-4.13529
84.25,-3.967097
84.3,-3.87996
84.35,-3.858228
84.4,-3.816638
84.45,-3.778361
84.5,-3.821368
84.55,-3.895182
84.6,-3.9181
84.65,-3.972916
84.7,-3.987358
84.75,-4.030279
84.8,-4.012895
84.85,-3.938023
84.9,-3.907247
84.95,-3.95937
85,-4.007477
85.05,-4.046279
85.1,-4.164865
85.15,-4.246962
85.2,-4.339067
85.25,-4.339496
85.3,-4.194525
85.35,-4.010797
85.4,-3.925789
85.45,-3.960151
85.5,-4.066579
85.55,-4.211545
85.6,-4.273588
85.65,-4.34311
85.7,-4.304684
85.75,-4.266851
85.8,-4.304988
85.85,-4.395627
85.9,-4.468895
85.95,-4.652208
86,-6.080743
86.05,-14.11301
86.1,14.88918
86.15,33.46058
86.2,40.37433
86.25,37.11702
86.3,26.12305
86.35,10.7618
86.4,-4.66344
86.45,-14.94167
86.5,-14.25773
86.55,2.002917
86.6,-3.028834
86.65,-3.937267
86.7,-3.866115
86.75,-3.900309
86.8,-4.024361
86.85,-4.167589
86.9,-4.245614
86.95,-4.209833
87,-4.130362
87.05,-3.869396
87.1,-3.601841
87.15,-3.263276
87.2,-2.731873
87.25,-1.467337
87.3,0.7550365
87.35,3.764496
87.4,7.543743
87.45,12.68124
87.5,19.81761
87.55,30.37631
87.6,40.65518
87.65,50.26994
87.7,59.737
87.75,66.99746
87.8,71.11034
87.85,73.78967
87.9,77.13058
87.95,80.43748
88,82.59302
88.05,82.24564
88.1,77.8798
88.15,69.68153
88.2,58.46484
88.25,46.7257
88.3,36.90945
88.35,29.22032
88.4,22.24313
88.45,16.62531
88.5,11.97774
88.55,7.320549
88.6,4.318706
88.65,2.713372
88.7,1.874292
88.75,1.374044
88.8,0.6925623
88.85,-0.2167607
88.9,-0.6832121
88.95,-1.064594
89,-1.070829
89.05,-1.297409
89.1,-1.775858
89.15,-2.409469
89.2,-3.05411
89.25,-3.387368
89.3,-3.380922
89.35,-3.346414
89.4,-3.416234
89.45,-3.332262
89.5,-3.461591
89.55,-3.748421
89.6,-3.840454
89.65,-3.86874
89.7,-3.912235
89.75,-4.061611
89.8,-4.234958
89.85,-4.279809
89.9,-4.338318
89.95,-4.563801
90,-4.704346
90.05,-4.598731
90.1,-4.482037
90.15,-4.420514
90.2,-4.37086
90.25,-4.322006
90.3,-4.366904
90.35,-4.571791
90.4,-4.772768
90.45,-4.814828
90.5,-4.710507
90.55,-4.596598
90.6,-4.526007
90.65,-4.487287
90.7,-4.482445
90.75,-4.569544
90.8,-4.743425
90.85,-4.877436
90.9,-4.904474
90.95,-4.939443
91,-4.955726
91.05,-4.956581
91.1,-4.946302
91.15,-4.911466
91.2,-4.893322
91.25,-4.897435
91.3,-4.910668
91.35,-4.94964
91.4,-4.970932
91.45,-4.944344
91.5,-4.945219
91.55,-4.891741
91.6,-4.819822
91.65,-4.797664
91.7,-4.831111
91.75,-4.891993
91.8,-4.964019
91.85,-5.057804
91.9,-5.174642
91.95,-4.78726
92,-4.390965
92.05,-4.225162
92.1,-4.206043
92.15,-4.323999
92.2,-4.578076
92.25,-4.896495
92.3,-5.138222
92.35,-5.177944
92.4,-5.02524
92.45,-5.08176
92.5,-5.114418
92.55,-5.090855
92.6,-5.077355
92.65,-5.102716
92.7,-5.118711
92.75,-5.113305
92.8,-5.129614
92.85,-5.143353
92.9,-5.151171
92.95,-5.179048
93,-5.162416
93.05,-5.14381
93.1,-5.145623
93.15,-5.140007
93.2,-5.13655
93.25,-5.132563
93.3,-5.088067
93.35,-5.039005
93.4,-5.027931
93.45,-5.052753
93.5,-5.056818
93.55,-5.084916
93.6,-5.1191
93.65,-5.162373
93.7,-5.166244
93.75,-5.105961
93.8,-5.057013
93.85,-5.053339
93.9,-5.033288
93.95,-5.066625
94,-5.133371
 
Alignment,On
